{"4a1oroa3xyqhwk5":{"data":[{"StartTime":1586368621795,"internal_node_id":"0.0-0.0","phase":"Consent","rt":7129.489999992074,"subject":"4a1oroa3xyqhwk5","time_elapsed":8352,"trial_index":0,"trial_type":"external-html","url":"forms/consent.html"},{"StartTime":1586368621795,"internal_node_id":"0.0-2.0","key_press":72,"phase":"Welcome","rt":1760.5150000017602,"stimulus":"<p>Welcome to the experiment. This experiment should take no longer than 5 minutes.</p> <p>Press any key to begin.</p>","subject":"4a1oroa3xyqhwk5","time_elapsed":10167,"trial_index":1,"trial_type":"html-keyboard-response"},{"StartTime":1586368621795,"internal_node_id":"0.0-3.0","subject":"4a1oroa3xyqhwk5","success":true,"time_elapsed":16552,"trial_index":2,"trial_type":"fullscreen"},{"StartTime":1586368621795,"fullscreen":true,"internal_node_id":"0.0-4.0-0.0","key_press":75,"phase":"Instructions","rt":897.8850000130478,"stimulus":"<p>Please read these instructions carefully.</p><p>In this 'experiment' you will be presented with words in coloured text. You will be identifying the colour of that text by pressing keys on the keyboard. J = Red, K = Yellow, L = Green. Please use just your dominant hand to make responses. Also, when prompted to provide a word, respond by typing in the word 'clean'. You will have 2 seconds to respond to each stimuli.</p><p>Press any key to begin.</p>","subject":"4a1oroa3xyqhwk5","time_elapsed":17453,"trial_index":3,"trial_type":"html-keyboard-response"},{"StartTime":1586368621795,"fullscreen":true,"internal_node_id":"0.0-4.0-1.0","phase":"Attention_Check","responses":"{\"Attention_check\":\"clean\"}","rt":2051.4899999980116,"subject":"4a1oroa3xyqhwk5","time_elapsed":20519,"trial_index":4,"trial_type":"survey-text"},{"StartTime":1586368621795,"colour":"red","cor_response":"j","correct":true,"internal_node_id":"0.0-5.0-0.0","key_press":74,"phase":"Practice","rt":421.84500000439584,"stim_type":"Practice","stimulus":"<p id = 'contingency_stim', style = 'color: red; font-size: 60pt;'>MONTH</p>","subject":"4a1oroa3xyqhwk5","time_elapsed":21949,"trial_index":5,"trial_type":"html-keyboard-response","word":"MONTH"},{"StartTime":1586368621795,"colour":"yellow","cor_response":"k","correct":true,"internal_node_id":"0.0-5.0-0.1","key_press":75,"phase":"Practice","rt":267.94999999401625,"stim_type":"Practice","stimulus":"<p id = 'contingency_stim', style = 'color: yellow; font-size: 60pt;'>MONTH</p>","subject":"4a1oroa3xyqhwk5","time_elapsed":22221,"trial_index":6,"trial_type":"html-keyboard-response","word":"MONTH"},{"StartTime":1586368621795,"colour":"green","cor_response":"l","correct":true,"internal_node_id":"0.0-5.0-0.2","key_press":76,"phase":"Practice","rt":269.31999999214895,"stim_type":"Practice","stimulus":"<p id = 'contingency_stim', style = 'color: green; font-size: 60pt;'>MONTH</p>","subject":"4a1oroa3xyqhwk5","time_elapsed":22493,"trial_index":7,"trial_type":"html-keyboard-response","word":"MONTH"},{"StartTime":1586368621795,"colour":"red","cor_response":"j","correct":true,"internal_node_id":"0.0-5.0-0.3","key_press":74,"phase":"Practice","rt":253.08500000392087,"stim_type":"Practice","stimulus":"<p id = 'contingency_stim', style = 'color: red; font-size: 60pt;'>UNDER</p>","subject":"4a1oroa3xyqhwk5","time_elapsed":22749,"trial_index":8,"trial_type":"html-keyboard-response","word":"UNDER"},{"StartTime":1586368621795,"colour":"yellow","cor_response":"k","correct":true,"internal_node_id":"0.0-5.0-0.4","key_press":75,"phase":"Practice","rt":213.31500000087544,"stim_type":"Practice","stimulus":"<p id = 'contingency_stim', style = 'color: yellow; font-size: 60pt;'>UNDER</p>","subject":"4a1oroa3xyqhwk5","time_elapsed":22965,"trial_index":9,"trial_type":"html-keyboard-response","word":"UNDER"},{"StartTime":1586368621795,"colour":"green","cor_response":"l","correct":true,"internal_node_id":"0.0-5.0-0.5","key_press":76,"phase":"Practice","rt":229.29499999736436,"stim_type":"Practice","stimulus":"<p id = 'contingency_stim', style = 'color: green; font-size: 60pt;'>UNDER</p>","subject":"4a1oroa3xyqhwk5","time_elapsed":23197,"trial_index":10,"trial_type":"html-keyboard-response","word":"UNDER"},{"StartTime":1586368621795,"colour":"red","cor_response":"j","correct":true,"internal_node_id":"0.0-5.0-0.6","key_press":74,"phase":"Practice","rt":228.85499999392778,"stim_type":"Practice","stimulus":"<p id = 'contingency_stim', style = 'color: red; font-size: 60pt;'>PLATE</p>","subject":"4a1oroa3xyqhwk5","time_elapsed":23428,"trial_index":11,"trial_type":"html-keyboard-response","word":"PLATE"},{"StartTime":1586368621795,"colour":"yellow","cor_response":"k","correct":true,"internal_node_id":"0.0-5.0-0.7","key_press":75,"phase":"Practice","rt":198.63499999337364,"stim_type":"Practice","stimulus":"<p id = 'contingency_stim', style = 'color: yellow; font-size: 60pt;'>PLATE</p>","subject":"4a1oroa3xyqhwk5","time_elapsed":23629,"trial_index":12,"trial_type":"html-keyboard-response","word":"PLATE"},{"StartTime":1586368621795,"colour":"green","cor_response":"l","correct":true,"internal_node_id":"0.0-5.0-0.8","key_press":76,"phase":"Practice","rt":220.3799999988405,"stim_type":"Practice","stimulus":"<p id = 'contingency_stim', style = 'color: green; font-size: 60pt;'>PLATE</p>","subject":"4a1oroa3xyqhwk5","time_elapsed":23851,"trial_index":13,"trial_type":"html-keyboard-response","word":"PLATE"},{"StartTime":1586368621795,"colour":"red","cor_response":"j","correct":true,"internal_node_id":"0.0-5.0-0.9","key_press":74,"phase":"Practice","rt":218.86999999696855,"stim_type":"Practice","stimulus":"<p id = 'contingency_stim', style = 'color: red; font-size: 60pt;'>CLOCK</p>","subject":"4a1oroa3xyqhwk5","time_elapsed":24072,"trial_index":14,"trial_type":"html-keyboard-response","word":"CLOCK"},{"StartTime":1586368621795,"colour":"yellow","cor_response":"k","correct":true,"internal_node_id":"0.0-5.0-0.10","key_press":75,"phase":"Practice","rt":194.645000010496,"stim_type":"Practice","stimulus":"<p id = 'contingency_stim', style = 'color: yellow; font-size: 60pt;'>CLOCK</p>","subject":"4a1oroa3xyqhwk5","time_elapsed":24269,"trial_index":15,"trial_type":"html-keyboard-response","word":"CLOCK"},{"StartTime":1586368621795,"colour":"green","cor_response":"l","correct":true,"internal_node_id":"0.0-5.0-0.11","key_press":76,"phase":"Practice","rt":203.85000000533182,"stim_type":"Practice","stimulus":"<p id = 'contingency_stim', style = 'color: green; font-size: 60pt;'>CLOCK</p>","subject":"4a1oroa3xyqhwk5","time_elapsed":24476,"trial_index":16,"trial_type":"html-keyboard-response","word":"CLOCK"},{"StartTime":1586368621795,"fullscreen":true,"internal_node_id":"0.0-6.0-0.0-0.0","phase":"Survey","responses":"{\"Par_Age\":\"10\"}","rt":2052.014999993844,"subject":"4a1oroa3xyqhwk5","time_elapsed":26534,"trial_index":17,"trial_type":"survey-text"},{"StartTime":1586368621795,"fullscreen":true,"internal_node_id":"0.0-6.0-1.0","phase":"Survey","responses":"{\"Gender_Q\":\"Other_gender\",\"other_gender_fill_in\":\"\"}","rt":3251.9800000009127,"subject":"4a1oroa3xyqhwk5","time_elapsed":29791,"trial_index":18,"trial_type":"survey-html-form"},{"StartTime":1586368621795,"fullscreen":true,"internal_node_id":"0.0-6.0-2.0","phase":"Survey","responses":"{\"Country_Q\":\"Other_country\",\"other_country_fill_in\":\"\"}","rt":1698.6349999933736,"subject":"4a1oroa3xyqhwk5","time_elapsed":31493,"trial_index":19,"trial_type":"survey-html-form"},{"StartTime":1586368621795,"fullscreen":true,"internal_node_id":"0.0-6.0-3.0","phase":"Survey","responses":"{\"Par_ID\":\"brad\"}","rt":2960.624999992433,"subject":"4a1oroa3xyqhwk5","time_elapsed":34462,"trial_index":20,"trial_type":"survey-text"},{"StartTime":1586368621795,"internal_node_id":"0.0-7.0","subject":"4a1oroa3xyqhwk5","success":true,"time_elapsed":35466,"trial_index":21,"trial_type":"fullscreen"}]},"6ns4bpjjb6lyst0":{"data":[{"StartTime":1586369480944,"internal_node_id":"0.0-0.0","phase":"Consent","rt":3173.125000001164,"subject":"6ns4bpjjb6lyst0","time_elapsed":4769,"trial_index":0,"trial_type":"external-html","url":"forms/consent.html"},{"StartTime":1586369480944,"internal_node_id":"0.0-2.0","key_press":68,"phase":"Welcome","rt":725.6349999952363,"stimulus":"<p>Welcome to the experiment. This experiment should take no longer than 5 minutes.</p> <p>Press any key to begin.</p>","subject":"6ns4bpjjb6lyst0","time_elapsed":5550,"trial_index":1,"trial_type":"html-keyboard-response"},{"StartTime":1586369480944,"internal_node_id":"0.0-3.0","subject":"6ns4bpjjb6lyst0","success":true,"time_elapsed":11928,"trial_index":2,"trial_type":"fullscreen"},{"StartTime":1586369480944,"fullscreen":true,"internal_node_id":"0.0-4.0-0.0","key_press":74,"phase":"Instructions","rt":1714.7000000113621,"stimulus":"<p>Please read these instructions carefully.</p><p>In this 'experiment' you will be presented with words in coloured text. You will be identifying the colour of that text by pressing keys on the keyboard. J = Red, K = Yellow, L = Green. Please use just your dominant hand to make responses. Also, when prompted to provide a word, respond by typing in the word 'clean'. You will have 2 seconds to respond to each stimuli.</p><p>Press any key to begin.</p>","subject":"6ns4bpjjb6lyst0","time_elapsed":13646,"trial_index":3,"trial_type":"html-keyboard-response"},{"StartTime":1586369480944,"fullscreen":true,"internal_node_id":"0.0-4.0-1.0","phase":"Attention_Check","responses":"{\"Attention_check\":\"clean\"}","rt":1024.3499999924097,"subject":"6ns4bpjjb6lyst0","time_elapsed":15688,"trial_index":4,"trial_type":"survey-text"},{"StartTime":1586369480944,"colour":"red","cor_response":"j","correct":true,"internal_node_id":"0.0-5.0-0.0","key_press":74,"phase":"Practice","rt":1203.8249999895925,"stim_type":"Practice","stimulus":"<p id = 'contingency_stim', style = 'color: red; font-size: 60pt;'>MONTH</p>","subject":"6ns4bpjjb6lyst0","time_elapsed":17902,"trial_index":5,"trial_type":"html-keyboard-response","word":"MONTH"},{"StartTime":1586369480944,"colour":"yellow","cor_response":"k","correct":true,"internal_node_id":"0.0-5.0-0.1","key_press":75,"phase":"Practice","rt":284.61000000243075,"stim_type":"Practice","stimulus":"<p id = 'contingency_stim', style = 'color: yellow; font-size: 60pt;'>MONTH</p>","subject":"6ns4bpjjb6lyst0","time_elapsed":18190,"trial_index":6,"trial_type":"html-keyboard-response","word":"MONTH"},{"StartTime":1586369480944,"colour":"green","cor_response":"l","correct":true,"internal_node_id":"0.0-5.0-0.2","key_press":76,"phase":"Practice","rt":261.15500000014435,"stim_type":"Practice","stimulus":"<p id = 'contingency_stim', style = 'color: green; font-size: 60pt;'>MONTH</p>","subject":"6ns4bpjjb6lyst0","time_elapsed":18454,"trial_index":7,"trial_type":"html-keyboard-response","word":"MONTH"},{"StartTime":1586369480944,"colour":"red","cor_response":"j","correct":false,"internal_node_id":"0.0-5.0-0.3","phase":"Practice","stim_type":"Practice","stimulus":"<p id = 'contingency_stim', style = 'color: red; font-size: 60pt;'>UNDER</p>","subject":"6ns4bpjjb6lyst0","time_elapsed":20458,"trial_index":8,"trial_type":"html-keyboard-response","word":"UNDER"},{"StartTime":1586369480944,"colour":"yellow","cor_response":"k","correct":false,"internal_node_id":"0.0-5.0-0.4","phase":"Practice","stim_type":"Practice","stimulus":"<p id = 'contingency_stim', style = 'color: yellow; font-size: 60pt;'>UNDER</p>","subject":"6ns4bpjjb6lyst0","time_elapsed":22461,"trial_index":9,"trial_type":"html-keyboard-response","word":"UNDER"},{"StartTime":1586369480944,"colour":"green","cor_response":"l","correct":true,"internal_node_id":"0.0-5.0-0.5","key_press":76,"phase":"Practice","rt":1.424999994924292,"stim_type":"Practice","stimulus":"<p id = 'contingency_stim', style = 'color: green; font-size: 60pt;'>UNDER</p>","subject":"6ns4bpjjb6lyst0","time_elapsed":22466,"trial_index":10,"trial_type":"html-keyboard-response","word":"UNDER"},{"StartTime":1586369480944,"colour":"red","cor_response":"j","correct":true,"internal_node_id":"0.0-5.0-0.6","key_press":74,"phase":"Practice","rt":522.2050000011222,"stim_type":"Practice","stimulus":"<p id = 'contingency_stim', style = 'color: red; font-size: 60pt;'>PLATE</p>","subject":"6ns4bpjjb6lyst0","time_elapsed":22990,"trial_index":11,"trial_type":"html-keyboard-response","word":"PLATE"},{"StartTime":1586369480944,"colour":"yellow","cor_response":"k","correct":true,"internal_node_id":"0.0-5.0-0.7","key_press":75,"phase":"Practice","rt":437.28999998711515,"stim_type":"Practice","stimulus":"<p id = 'contingency_stim', style = 'color: yellow; font-size: 60pt;'>PLATE</p>","subject":"6ns4bpjjb6lyst0","time_elapsed":23429,"trial_index":12,"trial_type":"html-keyboard-response","word":"PLATE"},{"StartTime":1586369480944,"colour":"green","cor_response":"l","correct":true,"internal_node_id":"0.0-5.0-0.8","key_press":76,"phase":"Practice","rt":222.6950000040233,"stim_type":"Practice","stimulus":"<p id = 'contingency_stim', style = 'color: green; font-size: 60pt;'>PLATE</p>","subject":"6ns4bpjjb6lyst0","time_elapsed":23654,"trial_index":13,"trial_type":"html-keyboard-response","word":"PLATE"},{"StartTime":1586369480944,"colour":"red","cor_response":"j","correct":true,"internal_node_id":"0.0-5.0-0.9","key_press":74,"phase":"Practice","rt":245.39500000537373,"stim_type":"Practice","stimulus":"<p id = 'contingency_stim', style = 'color: red; font-size: 60pt;'>CLOCK</p>","subject":"6ns4bpjjb6lyst0","time_elapsed":23903,"trial_index":14,"trial_type":"html-keyboard-response","word":"CLOCK"},{"StartTime":1586369480944,"colour":"yellow","cor_response":"k","correct":true,"internal_node_id":"0.0-5.0-0.10","key_press":75,"phase":"Practice","rt":268.46500000101514,"stim_type":"Practice","stimulus":"<p id = 'contingency_stim', style = 'color: yellow; font-size: 60pt;'>CLOCK</p>","subject":"6ns4bpjjb6lyst0","time_elapsed":24174,"trial_index":15,"trial_type":"html-keyboard-response","word":"CLOCK"},{"StartTime":1586369480944,"colour":"green","cor_response":"l","correct":true,"internal_node_id":"0.0-5.0-0.11","key_press":76,"phase":"Practice","rt":214.41499999491498,"stim_type":"Practice","stimulus":"<p id = 'contingency_stim', style = 'color: green; font-size: 60pt;'>CLOCK</p>","subject":"6ns4bpjjb6lyst0","time_elapsed":24390,"trial_index":16,"trial_type":"html-keyboard-response","word":"CLOCK"},{"StartTime":1586369480944,"fullscreen":true,"internal_node_id":"0.0-6.0-0.0-0.0","phase":"Survey","responses":"{\"Par_Age\":\"2\"}","rt":1986.5999999892665,"subject":"6ns4bpjjb6lyst0","time_elapsed":26383,"trial_index":17,"trial_type":"survey-text"},{"StartTime":1586369480944,"fullscreen":true,"internal_node_id":"0.0-6.0-1.0","phase":"Survey","responses":"{\"Gender_Q\":\"Other_gender\",\"other_gender_fill_in\":\"\"}","rt":3267.4199999892153,"subject":"6ns4bpjjb6lyst0","time_elapsed":29656,"trial_index":18,"trial_type":"survey-html-form"},{"StartTime":1586369480944,"fullscreen":true,"internal_node_id":"0.0-6.0-2.0","phase":"Survey","responses":"{\"Country_Q\":\"Other_country\",\"other_country_fill_in\":\"\"}","rt":2020.2049999934388,"subject":"6ns4bpjjb6lyst0","time_elapsed":31679,"trial_index":19,"trial_type":"survey-html-form"},{"StartTime":1586369480944,"fullscreen":true,"internal_node_id":"0.0-6.0-3.0","phase":"Survey","responses":"{\"Par_ID\":\"brad2\"}","rt":2632.805000001099,"subject":"6ns4bpjjb6lyst0","time_elapsed":34319,"trial_index":20,"trial_type":"survey-text"},{"StartTime":1586369480944,"internal_node_id":"0.0-7.0","subject":"6ns4bpjjb6lyst0","success":true,"time_elapsed":35323,"trial_index":21,"trial_type":"fullscreen"}]}}