{"fnxknwheaa503m7":{"data":[{"StartTime":1587154714703,"internal_node_id":"0.0-0.0","phase":"Consent","rt":6482.739999992191,"subject":"fnxknwheaa503m7","time_elapsed":7358,"trial_index":0,"trial_type":"external-html","url":"forms/consent.html"},{"StartTime":1587154714703,"internal_node_id":"0.0-2.0","key_press":74,"phase":"Welcome","rt":6538.625000001048,"stimulus":"<p>Welcome to the experiment. This experiment should take no longer than 5 minutes.</p> <p>Press any key to begin.</p>","subject":"fnxknwheaa503m7","time_elapsed":13954,"trial_index":1,"trial_type":"html-keyboard-response"},{"StartTime":1587154714703,"internal_node_id":"0.0-3.0","subject":"fnxknwheaa503m7","success":true,"time_elapsed":44311,"trial_index":2,"trial_type":"fullscreen"},{"StartTime":1587154714703,"fullscreen":true,"internal_node_id":"0.0-4.0-0.0","key_press":74,"phase":"Instructions","rt":24577.115000007325,"stimulus":"<p>Please read these instructions carefully.</p><p>In this 'experiment' you will be presented with words in coloured text. You will be identifying the colour of that text by pressing keys on the keyboard. J = Red, K = Yellow, L = Green. Please use just your dominant hand to make responses. Also, when prompted to provide a word, respond by typing in the word 'clean'. You will have 2 seconds to respond to each stimuli.</p><p>Press any key to begin.</p>","subject":"fnxknwheaa503m7","time_elapsed":68892,"trial_index":3,"trial_type":"html-keyboard-response"},{"StartTime":1587154714703,"fullscreen":true,"internal_node_id":"0.0-4.0-1.0","phase":"Attention_Check","responses":"{\"Attention_check\":\"clean\"}","rt":2884.8049999942305,"subject":"fnxknwheaa503m7","time_elapsed":72791,"trial_index":4,"trial_type":"survey-text"},{"StartTime":1587154714703,"internal_node_id":"0.0-5.0","phase":"Fixation","stimulus":"<p id = 'fixation_stim', style = 'color: black; font-size: 60pt;'>+</p>","subject":"fnxknwheaa503m7","time_elapsed":76547,"trial_index":5,"trial_type":"html-keyboard-response"},{"StartTime":1587154714703,"internal_node_id":"0.0-6.0-0.0","phase":"Fixation","stimulus":"<p id = 'fixation_stim', style = 'color: black; font-size: 60pt;'>+</p>","subject":"fnxknwheaa503m7","time_elapsed":76799,"trial_index":6,"trial_type":"html-keyboard-response"},{"StartTime":1587154714703,"colour":"red","cor_response":"j","correct":true,"internal_node_id":"0.0-6.0-1.0","key_press":74,"phase":"Practice","rt":262.9400000005262,"stim_type":"Practice","stimulus":"<p id = 'contingency_stim', style = 'color: red; font-size: 60pt;'>MONTH</p>","subject":"fnxknwheaa503m7","time_elapsed":77068,"trial_index":7,"trial_type":"html-keyboard-response","word":"MONTH"},{"StartTime":1587154714703,"internal_node_id":"0.0-6.0-2.0","phase":"Feedback","stimulus":"<p id = 'fixation_stim', style = 'color: white; font-size: 60pt;'>BLANK</p>","subject":"fnxknwheaa503m7","time_elapsed":77077,"trial_index":8,"trial_type":"html-keyboard-response"},{"StartTime":1587154714703,"internal_node_id":"0.0-6.0-0.1","phase":"Fixation","stimulus":"<p id = 'fixation_stim', style = 'color: black; font-size: 60pt;'>+</p>","subject":"fnxknwheaa503m7","time_elapsed":77331,"trial_index":9,"trial_type":"html-keyboard-response"},{"StartTime":1587154714703,"colour":"green","cor_response":"l","correct":true,"internal_node_id":"0.0-6.0-1.1","key_press":76,"phase":"Practice","rt":1094.9899999977788,"stim_type":"Practice","stimulus":"<p id = 'contingency_stim', style = 'color: green; font-size: 60pt;'>CLOCK</p>","subject":"fnxknwheaa503m7","time_elapsed":78429,"trial_index":10,"trial_type":"html-keyboard-response","word":"CLOCK"},{"StartTime":1587154714703,"internal_node_id":"0.0-6.0-2.1","phase":"Feedback","stimulus":"<p id = 'fixation_stim', style = 'color: white; font-size: 60pt;'>BLANK</p>","subject":"fnxknwheaa503m7","time_elapsed":78437,"trial_index":11,"trial_type":"html-keyboard-response"},{"StartTime":1587154714703,"internal_node_id":"0.0-6.0-0.2","phase":"Fixation","stimulus":"<p id = 'fixation_stim', style = 'color: black; font-size: 60pt;'>+</p>","subject":"fnxknwheaa503m7","time_elapsed":78691,"trial_index":12,"trial_type":"html-keyboard-response"},{"StartTime":1587154714703,"colour":"yellow","cor_response":"k","correct":true,"internal_node_id":"0.0-6.0-1.2","key_press":75,"phase":"Practice","rt":725.8449999935692,"stim_type":"Practice","stimulus":"<p id = 'contingency_stim', style = 'color: yellow; font-size: 60pt;'>MONTH</p>","subject":"fnxknwheaa503m7","time_elapsed":79420,"trial_index":13,"trial_type":"html-keyboard-response","word":"MONTH"},{"StartTime":1587154714703,"internal_node_id":"0.0-6.0-2.2","phase":"Feedback","stimulus":"<p id = 'fixation_stim', style = 'color: white; font-size: 60pt;'>BLANK</p>","subject":"fnxknwheaa503m7","time_elapsed":79424,"trial_index":14,"trial_type":"html-keyboard-response"},{"StartTime":1587154714703,"internal_node_id":"0.0-6.0-0.3","phase":"Fixation","stimulus":"<p id = 'fixation_stim', style = 'color: black; font-size: 60pt;'>+</p>","subject":"fnxknwheaa503m7","time_elapsed":79677,"trial_index":15,"trial_type":"html-keyboard-response"},{"StartTime":1587154714703,"colour":"red","cor_response":"j","correct":true,"internal_node_id":"0.0-6.0-1.3","key_press":74,"phase":"Practice","rt":1044.3000000086613,"stim_type":"Practice","stimulus":"<p id = 'contingency_stim', style = 'color: red; font-size: 60pt;'>PLATE</p>","subject":"fnxknwheaa503m7","time_elapsed":80724,"trial_index":16,"trial_type":"html-keyboard-response","word":"PLATE"},{"StartTime":1587154714703,"internal_node_id":"0.0-6.0-2.3","phase":"Feedback","stimulus":"<p id = 'fixation_stim', style = 'color: white; font-size: 60pt;'>BLANK</p>","subject":"fnxknwheaa503m7","time_elapsed":80732,"trial_index":17,"trial_type":"html-keyboard-response"},{"StartTime":1587154714703,"internal_node_id":"0.0-6.0-0.4","phase":"Fixation","stimulus":"<p id = 'fixation_stim', style = 'color: black; font-size: 60pt;'>+</p>","subject":"fnxknwheaa503m7","time_elapsed":80985,"trial_index":18,"trial_type":"html-keyboard-response"},{"StartTime":1587154714703,"colour":"red","cor_response":"j","correct":true,"internal_node_id":"0.0-6.0-1.4","key_press":74,"phase":"Practice","rt":592.0550000009825,"stim_type":"Practice","stimulus":"<p id = 'contingency_stim', style = 'color: red; font-size: 60pt;'>CLOCK</p>","subject":"fnxknwheaa503m7","time_elapsed":81580,"trial_index":19,"trial_type":"html-keyboard-response","word":"CLOCK"},{"StartTime":1587154714703,"internal_node_id":"0.0-6.0-2.4","phase":"Feedback","stimulus":"<p id = 'fixation_stim', style = 'color: white; font-size: 60pt;'>BLANK</p>","subject":"fnxknwheaa503m7","time_elapsed":81585,"trial_index":20,"trial_type":"html-keyboard-response"},{"StartTime":1587154714703,"internal_node_id":"0.0-6.0-0.5","phase":"Fixation","stimulus":"<p id = 'fixation_stim', style = 'color: black; font-size: 60pt;'>+</p>","subject":"fnxknwheaa503m7","time_elapsed":81837,"trial_index":21,"trial_type":"html-keyboard-response"},{"StartTime":1587154714703,"colour":"yellow","cor_response":"k","correct":true,"internal_node_id":"0.0-6.0-1.5","key_press":75,"phase":"Practice","rt":572.3799999977928,"stim_type":"Practice","stimulus":"<p id = 'contingency_stim', style = 'color: yellow; font-size: 60pt;'>CLOCK</p>","subject":"fnxknwheaa503m7","time_elapsed":82412,"trial_index":22,"trial_type":"html-keyboard-response","word":"CLOCK"},{"StartTime":1587154714703,"internal_node_id":"0.0-6.0-2.5","phase":"Feedback","stimulus":"<p id = 'fixation_stim', style = 'color: white; font-size: 60pt;'>BLANK</p>","subject":"fnxknwheaa503m7","time_elapsed":82419,"trial_index":23,"trial_type":"html-keyboard-response"},{"StartTime":1587154714703,"internal_node_id":"0.0-6.0-0.6","phase":"Fixation","stimulus":"<p id = 'fixation_stim', style = 'color: black; font-size: 60pt;'>+</p>","subject":"fnxknwheaa503m7","time_elapsed":82673,"trial_index":24,"trial_type":"html-keyboard-response"},{"StartTime":1587154714703,"colour":"green","cor_response":"l","correct":true,"internal_node_id":"0.0-6.0-1.6","key_press":76,"phase":"Practice","rt":448.0650000041351,"stim_type":"Practice","stimulus":"<p id = 'contingency_stim', style = 'color: green; font-size: 60pt;'>PLATE</p>","subject":"fnxknwheaa503m7","time_elapsed":83123,"trial_index":25,"trial_type":"html-keyboard-response","word":"PLATE"},{"StartTime":1587154714703,"internal_node_id":"0.0-6.0-2.6","phase":"Feedback","stimulus":"<p id = 'fixation_stim', style = 'color: white; font-size: 60pt;'>BLANK</p>","subject":"fnxknwheaa503m7","time_elapsed":83129,"trial_index":26,"trial_type":"html-keyboard-response"},{"StartTime":1587154714703,"internal_node_id":"0.0-6.0-0.7","phase":"Fixation","stimulus":"<p id = 'fixation_stim', style = 'color: black; font-size: 60pt;'>+</p>","subject":"fnxknwheaa503m7","time_elapsed":83381,"trial_index":27,"trial_type":"html-keyboard-response"},{"StartTime":1587154714703,"colour":"green","cor_response":"l","correct":true,"internal_node_id":"0.0-6.0-1.7","key_press":76,"phase":"Practice","rt":637.2899999987567,"stim_type":"Practice","stimulus":"<p id = 'contingency_stim', style = 'color: green; font-size: 60pt;'>UNDER</p>","subject":"fnxknwheaa503m7","time_elapsed":84021,"trial_index":28,"trial_type":"html-keyboard-response","word":"UNDER"},{"StartTime":1587154714703,"internal_node_id":"0.0-6.0-2.7","phase":"Feedback","stimulus":"<p id = 'fixation_stim', style = 'color: white; font-size: 60pt;'>BLANK</p>","subject":"fnxknwheaa503m7","time_elapsed":84028,"trial_index":29,"trial_type":"html-keyboard-response"},{"StartTime":1587154714703,"internal_node_id":"0.0-6.0-0.8","phase":"Fixation","stimulus":"<p id = 'fixation_stim', style = 'color: black; font-size: 60pt;'>+</p>","subject":"fnxknwheaa503m7","time_elapsed":84280,"trial_index":30,"trial_type":"html-keyboard-response"},{"StartTime":1587154714703,"colour":"yellow","cor_response":"k","correct":true,"internal_node_id":"0.0-6.0-1.8","key_press":75,"phase":"Practice","rt":561.1950000020443,"stim_type":"Practice","stimulus":"<p id = 'contingency_stim', style = 'color: yellow; font-size: 60pt;'>UNDER</p>","subject":"fnxknwheaa503m7","time_elapsed":84844,"trial_index":31,"trial_type":"html-keyboard-response","word":"UNDER"},{"StartTime":1587154714703,"internal_node_id":"0.0-6.0-2.8","phase":"Feedback","stimulus":"<p id = 'fixation_stim', style = 'color: white; font-size: 60pt;'>BLANK</p>","subject":"fnxknwheaa503m7","time_elapsed":84849,"trial_index":32,"trial_type":"html-keyboard-response"},{"StartTime":1587154714703,"internal_node_id":"0.0-6.0-0.9","phase":"Fixation","stimulus":"<p id = 'fixation_stim', style = 'color: black; font-size: 60pt;'>+</p>","subject":"fnxknwheaa503m7","time_elapsed":85101,"trial_index":33,"trial_type":"html-keyboard-response"},{"StartTime":1587154714703,"colour":"yellow","cor_response":"k","correct":true,"internal_node_id":"0.0-6.0-1.9","key_press":75,"phase":"Practice","rt":525.0950000045123,"stim_type":"Practice","stimulus":"<p id = 'contingency_stim', style = 'color: yellow; font-size: 60pt;'>PLATE</p>","subject":"fnxknwheaa503m7","time_elapsed":85629,"trial_index":34,"trial_type":"html-keyboard-response","word":"PLATE"},{"StartTime":1587154714703,"internal_node_id":"0.0-6.0-2.9","phase":"Feedback","stimulus":"<p id = 'fixation_stim', style = 'color: white; font-size: 60pt;'>BLANK</p>","subject":"fnxknwheaa503m7","time_elapsed":85636,"trial_index":35,"trial_type":"html-keyboard-response"},{"StartTime":1587154714703,"internal_node_id":"0.0-6.0-0.10","phase":"Fixation","stimulus":"<p id = 'fixation_stim', style = 'color: black; font-size: 60pt;'>+</p>","subject":"fnxknwheaa503m7","time_elapsed":85890,"trial_index":36,"trial_type":"html-keyboard-response"},{"StartTime":1587154714703,"colour":"red","cor_response":"j","correct":true,"internal_node_id":"0.0-6.0-1.10","key_press":74,"phase":"Practice","rt":519.1649999906076,"stim_type":"Practice","stimulus":"<p id = 'contingency_stim', style = 'color: red; font-size: 60pt;'>UNDER</p>","subject":"fnxknwheaa503m7","time_elapsed":86413,"trial_index":37,"trial_type":"html-keyboard-response","word":"UNDER"},{"StartTime":1587154714703,"internal_node_id":"0.0-6.0-2.10","phase":"Feedback","stimulus":"<p id = 'fixation_stim', style = 'color: white; font-size: 60pt;'>BLANK</p>","subject":"fnxknwheaa503m7","time_elapsed":86420,"trial_index":38,"trial_type":"html-keyboard-response"},{"StartTime":1587154714703,"internal_node_id":"0.0-6.0-0.11","phase":"Fixation","stimulus":"<p id = 'fixation_stim', style = 'color: black; font-size: 60pt;'>+</p>","subject":"fnxknwheaa503m7","time_elapsed":86672,"trial_index":39,"trial_type":"html-keyboard-response"},{"StartTime":1587154714703,"colour":"green","cor_response":"l","correct":true,"internal_node_id":"0.0-6.0-1.11","key_press":76,"phase":"Practice","rt":688.880000001518,"stim_type":"Practice","stimulus":"<p id = 'contingency_stim', style = 'color: green; font-size: 60pt;'>MONTH</p>","subject":"fnxknwheaa503m7","time_elapsed":87363,"trial_index":40,"trial_type":"html-keyboard-response","word":"MONTH"},{"StartTime":1587154714703,"internal_node_id":"0.0-6.0-2.11","phase":"Feedback","stimulus":"<p id = 'fixation_stim', style = 'color: white; font-size: 60pt;'>BLANK</p>","subject":"fnxknwheaa503m7","time_elapsed":87368,"trial_index":41,"trial_type":"html-keyboard-response"},{"StartTime":1587154714703,"fullscreen":true,"internal_node_id":"0.0-7.0-0.0-0.0","phase":"Survey","responses":"{\"Par_Age\":\"24\"}","rt":5254.434999995283,"subject":"fnxknwheaa503m7","time_elapsed":92629,"trial_index":42,"trial_type":"survey-text"},{"StartTime":1587154714703,"fullscreen":true,"internal_node_id":"0.0-7.0-1.0","phase":"Survey","responses":"{\"Gender_Q\":\"Female\",\"other_gender_fill_in\":\"\"}","rt":5043.529999995371,"subject":"fnxknwheaa503m7","time_elapsed":97678,"trial_index":43,"trial_type":"survey-html-form"},{"StartTime":1587154714703,"fullscreen":true,"internal_node_id":"0.0-7.0-2.0","phase":"Survey","responses":"{\"Country_Q\":\"Canada\",\"other_country_fill_in\":\"\"}","rt":3173.510000007809,"subject":"fnxknwheaa503m7","time_elapsed":100855,"trial_index":44,"trial_type":"survey-html-form"},{"StartTime":1587154714703,"fullscreen":true,"internal_node_id":"0.0-7.0-3.0","phase":"Survey","responses":"{\"Par_ID\":\"as\"}","rt":11374.609999998938,"subject":"fnxknwheaa503m7","time_elapsed":112237,"trial_index":45,"trial_type":"survey-text"},{"StartTime":1587154714703,"internal_node_id":"0.0-8.0","subject":"fnxknwheaa503m7","success":true,"time_elapsed":113240,"trial_index":46,"trial_type":"fullscreen"}]},"gjqjcvd9ut9e008":{"data":[{"StartTime":1587154845504,"internal_node_id":"0.0-0.0","phase":"Consent","rt":2900.825000004261,"subject":"gjqjcvd9ut9e008","time_elapsed":3867,"trial_index":0,"trial_type":"external-html","url":"forms/consent.html"},{"StartTime":1587154845504,"internal_node_id":"0.0-2.0","key_press":75,"phase":"Welcome","rt":1595.7699999999022,"stimulus":"<p>Welcome to the experiment. This experiment should take no longer than 5 minutes.</p> <p>Press any key to begin.</p>","subject":"gjqjcvd9ut9e008","time_elapsed":5520,"trial_index":1,"trial_type":"html-keyboard-response"},{"StartTime":1587154845504,"internal_node_id":"0.0-3.0","subject":"gjqjcvd9ut9e008","success":true,"time_elapsed":12156,"trial_index":2,"trial_type":"fullscreen"},{"StartTime":1587154845504,"fullscreen":true,"internal_node_id":"0.0-4.0-0.0","key_press":75,"phase":"Instructions","rt":2008.7399999902118,"stimulus":"<p>Please read these instructions carefully.</p><p>In this 'experiment' you will be presented with words in coloured text. You will be identifying the colour of that text by pressing keys on the keyboard. J = Red, K = Yellow, L = Green. Please use just your dominant hand to make responses. Also, when prompted to provide a word, respond by typing in the word 'clean'. You will have 2 seconds to respond to each stimuli.</p><p>Press any key to begin.</p>","subject":"gjqjcvd9ut9e008","time_elapsed":14168,"trial_index":3,"trial_type":"html-keyboard-response"},{"StartTime":1587154845504,"fullscreen":true,"internal_node_id":"0.0-4.0-1.0","phase":"Attention_Check","responses":"{\"Attention_check\":\"puppy\"}","rt":2206.2199999927543,"subject":"gjqjcvd9ut9e008","time_elapsed":17386,"trial_index":4,"trial_type":"survey-text"},{"StartTime":1587154845504,"fullscreen":true,"internal_node_id":"0.0-4.1-0.1","key_press":75,"phase":"Instructions","rt":654.869999998482,"stimulus":"<p>Please read these instructions carefully.</p><p>In this 'experiment' you will be presented with words in coloured text. You will be identifying the colour of that text by pressing keys on the keyboard. J = Red, K = Yellow, L = Green. Please use just your dominant hand to make responses. Also, when prompted to provide a word, respond by typing in the word 'clean'. You will have 2 seconds to respond to each stimuli.</p><p>Press any key to begin.</p>","subject":"gjqjcvd9ut9e008","time_elapsed":19048,"trial_index":5,"trial_type":"html-keyboard-response"},{"StartTime":1587154845504,"fullscreen":true,"internal_node_id":"0.0-4.1-1.1","phase":"Attention_Check","responses":"{\"Attention_check\":\"yes\"}","rt":664.1050000034738,"subject":"gjqjcvd9ut9e008","time_elapsed":20721,"trial_index":6,"trial_type":"survey-text"},{"StartTime":1587154845504,"fullscreen":true,"internal_node_id":"0.0-4.2-0.2","key_press":13,"phase":"Instructions","rt":523.3350000053179,"stimulus":"<p>Please read these instructions carefully.</p><p>In this 'experiment' you will be presented with words in coloured text. You will be identifying the colour of that text by pressing keys on the keyboard. J = Red, K = Yellow, L = Green. Please use just your dominant hand to make responses. Also, when prompted to provide a word, respond by typing in the word 'clean'. You will have 2 seconds to respond to each stimuli.</p><p>Press any key to begin.</p>","subject":"gjqjcvd9ut9e008","time_elapsed":22248,"trial_index":7,"trial_type":"html-keyboard-response"},{"StartTime":1587154845504,"fullscreen":true,"internal_node_id":"0.0-4.2-1.2","phase":"Attention_Check","responses":"{\"Attention_check\":\"totally\"}","rt":1218.429999993532,"subject":"gjqjcvd9ut9e008","time_elapsed":24473,"trial_index":8,"trial_type":"survey-text"},{"StartTime":1587154845504,"fullscreen":true,"internal_node_id":"0.0-4.3-0.3","key_press":75,"phase":"Instructions","rt":387.4599999981001,"stimulus":"<p>Please read these instructions carefully.</p><p>In this 'experiment' you will be presented with words in coloured text. You will be identifying the colour of that text by pressing keys on the keyboard. J = Red, K = Yellow, L = Green. Please use just your dominant hand to make responses. Also, when prompted to provide a word, respond by typing in the word 'clean'. You will have 2 seconds to respond to each stimuli.</p><p>Press any key to begin.</p>","subject":"gjqjcvd9ut9e008","time_elapsed":25864,"trial_index":9,"trial_type":"html-keyboard-response"},{"StartTime":1587154845504,"fullscreen":true,"internal_node_id":"0.0-4.3-1.3","phase":"Attention_Check","responses":"{\"Attention_check\":\"junk\"}","rt":2134.765000009793,"subject":"gjqjcvd9ut9e008","time_elapsed":29008,"trial_index":10,"trial_type":"survey-text"},{"StartTime":1587154845504,"fullscreen":true,"internal_node_id":"0.0-4.4-0.4","key_press":13,"phase":"Instructions","rt":955.7950000016717,"stimulus":"<p>Please read these instructions carefully.</p><p>In this 'experiment' you will be presented with words in coloured text. You will be identifying the colour of that text by pressing keys on the keyboard. J = Red, K = Yellow, L = Green. Please use just your dominant hand to make responses. Also, when prompted to provide a word, respond by typing in the word 'clean'. You will have 2 seconds to respond to each stimuli.</p><p>Press any key to begin.</p>","subject":"gjqjcvd9ut9e008","time_elapsed":30968,"trial_index":11,"trial_type":"html-keyboard-response"},{"StartTime":1587154845504,"fullscreen":true,"internal_node_id":"0.0-4.4-1.4","phase":"Attention_Check","responses":"{\"Attention_check\":\"cleaner\"}","rt":1553.169999999227,"subject":"gjqjcvd9ut9e008","time_elapsed":33529,"trial_index":12,"trial_type":"survey-text"},{"StartTime":1587154845504,"fullscreen":true,"internal_node_id":"0.0-4.5-0.5","key_press":100,"phase":"Instructions","rt":787.9749999992782,"stimulus":"<p>Please read these instructions carefully.</p><p>In this 'experiment' you will be presented with words in coloured text. You will be identifying the colour of that text by pressing keys on the keyboard. J = Red, K = Yellow, L = Green. Please use just your dominant hand to make responses. Also, when prompted to provide a word, respond by typing in the word 'clean'. You will have 2 seconds to respond to each stimuli.</p><p>Press any key to begin.</p>","subject":"gjqjcvd9ut9e008","time_elapsed":35321,"trial_index":13,"trial_type":"html-keyboard-response"},{"StartTime":1587154845504,"fullscreen":true,"internal_node_id":"0.0-4.5-1.5","phase":"Attention_Check","responses":"{\"Attention_check\":\"clean\"}","rt":902.3899999883724,"subject":"gjqjcvd9ut9e008","time_elapsed":37233,"trial_index":14,"trial_type":"survey-text"},{"StartTime":1587154845504,"internal_node_id":"0.0-5.0","phase":"Fixation","stimulus":"<p id = 'fixation_stim', style = 'color: black; font-size: 60pt;'>+</p>","subject":"gjqjcvd9ut9e008","time_elapsed":40988,"trial_index":15,"trial_type":"html-keyboard-response"},{"StartTime":1587154845504,"internal_node_id":"0.0-6.0-0.0","phase":"Fixation","stimulus":"<p id = 'fixation_stim', style = 'color: black; font-size: 60pt;'>+</p>","subject":"gjqjcvd9ut9e008","time_elapsed":41241,"trial_index":16,"trial_type":"html-keyboard-response"},{"StartTime":1587154845504,"colour":"red","cor_response":"j","correct":true,"internal_node_id":"0.0-6.0-1.0","key_press":74,"phase":"Practice","rt":760.8049999980722,"stim_type":"Practice","stimulus":"<p id = 'contingency_stim', style = 'color: red; font-size: 60pt;'>PLATE</p>","subject":"gjqjcvd9ut9e008","time_elapsed":42008,"trial_index":17,"trial_type":"html-keyboard-response","word":"PLATE"},{"StartTime":1587154845504,"internal_node_id":"0.0-6.0-2.0","phase":"Feedback","stimulus":"<p id = 'fixation_stim', style = 'color: white; font-size: 60pt;'>BLANK</p>","subject":"gjqjcvd9ut9e008","time_elapsed":42018,"trial_index":18,"trial_type":"html-keyboard-response"},{"StartTime":1587154845504,"internal_node_id":"0.0-6.0-0.1","phase":"Fixation","stimulus":"<p id = 'fixation_stim', style = 'color: black; font-size: 60pt;'>+</p>","subject":"gjqjcvd9ut9e008","time_elapsed":42271,"trial_index":19,"trial_type":"html-keyboard-response"},{"StartTime":1587154845504,"colour":"green","cor_response":"l","correct":true,"internal_node_id":"0.0-6.0-1.1","key_press":76,"phase":"Practice","rt":823.8600000040606,"stim_type":"Practice","stimulus":"<p id = 'contingency_stim', style = 'color: green; font-size: 60pt;'>PLATE</p>","subject":"gjqjcvd9ut9e008","time_elapsed":43098,"trial_index":20,"trial_type":"html-keyboard-response","word":"PLATE"},{"StartTime":1587154845504,"internal_node_id":"0.0-6.0-2.1","phase":"Feedback","stimulus":"<p id = 'fixation_stim', style = 'color: white; font-size: 60pt;'>BLANK</p>","subject":"gjqjcvd9ut9e008","time_elapsed":43106,"trial_index":21,"trial_type":"html-keyboard-response"},{"StartTime":1587154845504,"internal_node_id":"0.0-6.0-0.2","phase":"Fixation","stimulus":"<p id = 'fixation_stim', style = 'color: black; font-size: 60pt;'>+</p>","subject":"gjqjcvd9ut9e008","time_elapsed":43359,"trial_index":22,"trial_type":"html-keyboard-response"},{"StartTime":1587154845504,"colour":"green","cor_response":"l","correct":true,"internal_node_id":"0.0-6.0-1.2","key_press":76,"phase":"Practice","rt":694.2149999958929,"stim_type":"Practice","stimulus":"<p id = 'contingency_stim', style = 'color: green; font-size: 60pt;'>MONTH</p>","subject":"gjqjcvd9ut9e008","time_elapsed":44056,"trial_index":23,"trial_type":"html-keyboard-response","word":"MONTH"},{"StartTime":1587154845504,"internal_node_id":"0.0-6.0-2.2","phase":"Feedback","stimulus":"<p id = 'fixation_stim', style = 'color: white; font-size: 60pt;'>BLANK</p>","subject":"gjqjcvd9ut9e008","time_elapsed":44063,"trial_index":24,"trial_type":"html-keyboard-response"},{"StartTime":1587154845504,"internal_node_id":"0.0-6.0-0.3","phase":"Fixation","stimulus":"<p id = 'fixation_stim', style = 'color: black; font-size: 60pt;'>+</p>","subject":"gjqjcvd9ut9e008","time_elapsed":44315,"trial_index":25,"trial_type":"html-keyboard-response"},{"StartTime":1587154845504,"colour":"yellow","cor_response":"k","correct":true,"internal_node_id":"0.0-6.0-1.3","key_press":75,"phase":"Practice","rt":657.7800000086427,"stim_type":"Practice","stimulus":"<p id = 'contingency_stim', style = 'color: yellow; font-size: 60pt;'>PLATE</p>","subject":"gjqjcvd9ut9e008","time_elapsed":44976,"trial_index":26,"trial_type":"html-keyboard-response","word":"PLATE"},{"StartTime":1587154845504,"internal_node_id":"0.0-6.0-2.3","phase":"Feedback","stimulus":"<p id = 'fixation_stim', style = 'color: white; font-size: 60pt;'>BLANK</p>","subject":"gjqjcvd9ut9e008","time_elapsed":44983,"trial_index":27,"trial_type":"html-keyboard-response"},{"StartTime":1587154845504,"internal_node_id":"0.0-6.0-0.4","phase":"Fixation","stimulus":"<p id = 'fixation_stim', style = 'color: black; font-size: 60pt;'>+</p>","subject":"gjqjcvd9ut9e008","time_elapsed":45236,"trial_index":28,"trial_type":"html-keyboard-response"},{"StartTime":1587154845504,"colour":"red","cor_response":"j","correct":true,"internal_node_id":"0.0-6.0-1.4","key_press":74,"phase":"Practice","rt":1057.0749999897089,"stim_type":"Practice","stimulus":"<p id = 'contingency_stim', style = 'color: red; font-size: 60pt;'>CLOCK</p>","subject":"gjqjcvd9ut9e008","time_elapsed":46295,"trial_index":29,"trial_type":"html-keyboard-response","word":"CLOCK"},{"StartTime":1587154845504,"internal_node_id":"0.0-6.0-2.4","phase":"Feedback","stimulus":"<p id = 'fixation_stim', style = 'color: white; font-size: 60pt;'>BLANK</p>","subject":"gjqjcvd9ut9e008","time_elapsed":46300,"trial_index":30,"trial_type":"html-keyboard-response"},{"StartTime":1587154845504,"internal_node_id":"0.0-6.0-0.5","phase":"Fixation","stimulus":"<p id = 'fixation_stim', style = 'color: black; font-size: 60pt;'>+</p>","subject":"gjqjcvd9ut9e008","time_elapsed":46552,"trial_index":31,"trial_type":"html-keyboard-response"},{"StartTime":1587154845504,"colour":"yellow","cor_response":"k","correct":true,"internal_node_id":"0.0-6.0-1.5","key_press":75,"phase":"Practice","rt":778.9650000049733,"stim_type":"Practice","stimulus":"<p id = 'contingency_stim', style = 'color: yellow; font-size: 60pt;'>MONTH</p>","subject":"gjqjcvd9ut9e008","time_elapsed":47334,"trial_index":32,"trial_type":"html-keyboard-response","word":"MONTH"},{"StartTime":1587154845504,"internal_node_id":"0.0-6.0-2.5","phase":"Feedback","stimulus":"<p id = 'fixation_stim', style = 'color: white; font-size: 60pt;'>BLANK</p>","subject":"gjqjcvd9ut9e008","time_elapsed":47339,"trial_index":33,"trial_type":"html-keyboard-response"},{"StartTime":1587154845504,"internal_node_id":"0.0-6.0-0.6","phase":"Fixation","stimulus":"<p id = 'fixation_stim', style = 'color: black; font-size: 60pt;'>+</p>","subject":"gjqjcvd9ut9e008","time_elapsed":47593,"trial_index":34,"trial_type":"html-keyboard-response"},{"StartTime":1587154845504,"colour":"red","cor_response":"j","correct":true,"internal_node_id":"0.0-6.0-1.6","key_press":74,"phase":"Practice","rt":947.424999991199,"stim_type":"Practice","stimulus":"<p id = 'contingency_stim', style = 'color: red; font-size: 60pt;'>UNDER</p>","subject":"gjqjcvd9ut9e008","time_elapsed":48542,"trial_index":35,"trial_type":"html-keyboard-response","word":"UNDER"},{"StartTime":1587154845504,"internal_node_id":"0.0-6.0-2.6","phase":"Feedback","stimulus":"<p id = 'fixation_stim', style = 'color: white; font-size: 60pt;'>BLANK</p>","subject":"gjqjcvd9ut9e008","time_elapsed":48547,"trial_index":36,"trial_type":"html-keyboard-response"},{"StartTime":1587154845504,"internal_node_id":"0.0-6.0-0.7","phase":"Fixation","stimulus":"<p id = 'fixation_stim', style = 'color: black; font-size: 60pt;'>+</p>","subject":"gjqjcvd9ut9e008","time_elapsed":48799,"trial_index":37,"trial_type":"html-keyboard-response"},{"StartTime":1587154845504,"colour":"green","cor_response":"l","correct":true,"internal_node_id":"0.0-6.0-1.7","key_press":76,"phase":"Practice","rt":469.03500000189524,"stim_type":"Practice","stimulus":"<p id = 'contingency_stim', style = 'color: green; font-size: 60pt;'>CLOCK</p>","subject":"gjqjcvd9ut9e008","time_elapsed":49271,"trial_index":38,"trial_type":"html-keyboard-response","word":"CLOCK"},{"StartTime":1587154845504,"internal_node_id":"0.0-6.0-2.7","phase":"Feedback","stimulus":"<p id = 'fixation_stim', style = 'color: white; font-size: 60pt;'>BLANK</p>","subject":"gjqjcvd9ut9e008","time_elapsed":49276,"trial_index":39,"trial_type":"html-keyboard-response"},{"StartTime":1587154845504,"internal_node_id":"0.0-6.0-0.8","phase":"Fixation","stimulus":"<p id = 'fixation_stim', style = 'color: black; font-size: 60pt;'>+</p>","subject":"gjqjcvd9ut9e008","time_elapsed":49529,"trial_index":40,"trial_type":"html-keyboard-response"},{"StartTime":1587154845504,"colour":"green","cor_response":"l","correct":true,"internal_node_id":"0.0-6.0-1.8","key_press":76,"phase":"Practice","rt":460.52000000781845,"stim_type":"Practice","stimulus":"<p id = 'contingency_stim', style = 'color: green; font-size: 60pt;'>UNDER</p>","subject":"gjqjcvd9ut9e008","time_elapsed":49993,"trial_index":41,"trial_type":"html-keyboard-response","word":"UNDER"},{"StartTime":1587154845504,"internal_node_id":"0.0-6.0-2.8","phase":"Feedback","stimulus":"<p id = 'fixation_stim', style = 'color: white; font-size: 60pt;'>BLANK</p>","subject":"gjqjcvd9ut9e008","time_elapsed":50000,"trial_index":42,"trial_type":"html-keyboard-response"},{"StartTime":1587154845504,"internal_node_id":"0.0-6.0-0.9","phase":"Fixation","stimulus":"<p id = 'fixation_stim', style = 'color: black; font-size: 60pt;'>+</p>","subject":"gjqjcvd9ut9e008","time_elapsed":50253,"trial_index":43,"trial_type":"html-keyboard-response"},{"StartTime":1587154845504,"colour":"red","cor_response":"j","correct":true,"internal_node_id":"0.0-6.0-1.9","key_press":74,"phase":"Practice","rt":727.7150000008987,"stim_type":"Practice","stimulus":"<p id = 'contingency_stim', style = 'color: red; font-size: 60pt;'>MONTH</p>","subject":"gjqjcvd9ut9e008","time_elapsed":50984,"trial_index":44,"trial_type":"html-keyboard-response","word":"MONTH"},{"StartTime":1587154845504,"internal_node_id":"0.0-6.0-2.9","phase":"Feedback","stimulus":"<p id = 'fixation_stim', style = 'color: white; font-size: 60pt;'>BLANK</p>","subject":"gjqjcvd9ut9e008","time_elapsed":50991,"trial_index":45,"trial_type":"html-keyboard-response"},{"StartTime":1587154845504,"internal_node_id":"0.0-6.0-0.10","phase":"Fixation","stimulus":"<p id = 'fixation_stim', style = 'color: black; font-size: 60pt;'>+</p>","subject":"gjqjcvd9ut9e008","time_elapsed":51245,"trial_index":46,"trial_type":"html-keyboard-response"},{"StartTime":1587154845504,"colour":"yellow","cor_response":"k","correct":true,"internal_node_id":"0.0-6.0-1.10","key_press":75,"phase":"Practice","rt":672.0749999949476,"stim_type":"Practice","stimulus":"<p id = 'contingency_stim', style = 'color: yellow; font-size: 60pt;'>UNDER</p>","subject":"gjqjcvd9ut9e008","time_elapsed":51920,"trial_index":47,"trial_type":"html-keyboard-response","word":"UNDER"},{"StartTime":1587154845504,"internal_node_id":"0.0-6.0-2.10","phase":"Feedback","stimulus":"<p id = 'fixation_stim', style = 'color: white; font-size: 60pt;'>BLANK</p>","subject":"gjqjcvd9ut9e008","time_elapsed":51928,"trial_index":48,"trial_type":"html-keyboard-response"},{"StartTime":1587154845504,"internal_node_id":"0.0-6.0-0.11","phase":"Fixation","stimulus":"<p id = 'fixation_stim', style = 'color: black; font-size: 60pt;'>+</p>","subject":"gjqjcvd9ut9e008","time_elapsed":52181,"trial_index":49,"trial_type":"html-keyboard-response"},{"StartTime":1587154845504,"colour":"yellow","cor_response":"k","correct":true,"internal_node_id":"0.0-6.0-1.11","key_press":75,"phase":"Practice","rt":695.8549999981187,"stim_type":"Practice","stimulus":"<p id = 'contingency_stim', style = 'color: yellow; font-size: 60pt;'>CLOCK</p>","subject":"gjqjcvd9ut9e008","time_elapsed":52880,"trial_index":50,"trial_type":"html-keyboard-response","word":"CLOCK"},{"StartTime":1587154845504,"internal_node_id":"0.0-6.0-2.11","phase":"Feedback","stimulus":"<p id = 'fixation_stim', style = 'color: white; font-size: 60pt;'>BLANK</p>","subject":"gjqjcvd9ut9e008","time_elapsed":52887,"trial_index":51,"trial_type":"html-keyboard-response"},{"StartTime":1587154845504,"fullscreen":true,"internal_node_id":"0.0-7.0-0.0-0.0","phase":"Survey","responses":"{\"Par_Age\":\"2\"}","rt":3175.004999997327,"subject":"gjqjcvd9ut9e008","time_elapsed":56072,"trial_index":52,"trial_type":"survey-text"},{"StartTime":1587154845504,"fullscreen":true,"internal_node_id":"0.0-7.0-1.0","phase":"Survey","responses":"{\"Gender_Q\":\"Other_gender\",\"other_gender_fill_in\":\"Junk\"}","rt":6599.7800000041025,"subject":"gjqjcvd9ut9e008","time_elapsed":62678,"trial_index":53,"trial_type":"survey-html-form"},{"StartTime":1587154845504,"fullscreen":true,"internal_node_id":"0.0-7.0-2.0","phase":"Survey","responses":"{\"Country_Q\":\"Other_country\",\"other_country_fill_in\":\"Atlantis\"}","rt":5767.384999999194,"subject":"gjqjcvd9ut9e008","time_elapsed":68449,"trial_index":54,"trial_type":"survey-html-form"},{"StartTime":1587154845504,"fullscreen":true,"internal_node_id":"0.0-7.0-3.0","phase":"Survey","responses":"{\"Par_ID\":\"Not Paying Attention\"}","rt":16678.26000000059,"subject":"gjqjcvd9ut9e008","time_elapsed":85136,"trial_index":55,"trial_type":"survey-text"},{"StartTime":1587154845504,"internal_node_id":"0.0-8.0","subject":"gjqjcvd9ut9e008","success":true,"time_elapsed":86139,"trial_index":56,"trial_type":"fullscreen"}]},"n73ggd0vkyxe10m":{"data":[{"StartTime":1587154645479,"internal_node_id":"0.0-0.0","phase":"Consent","rt":3101.6450000024633,"subject":"n73ggd0vkyxe10m","time_elapsed":4482,"trial_index":0,"trial_type":"external-html","url":"forms/consent.html"},{"StartTime":1587154645479,"internal_node_id":"0.0-2.0","key_press":75,"phase":"Welcome","rt":2270.8399999974063,"stimulus":"<p>Welcome to the experiment. This experiment should take no longer than 5 minutes.</p> <p>Press any key to begin.</p>","subject":"n73ggd0vkyxe10m","time_elapsed":6816,"trial_index":1,"trial_type":"html-keyboard-response"},{"StartTime":1587154645479,"internal_node_id":"0.0-3.0","subject":"n73ggd0vkyxe10m","success":true,"time_elapsed":15119,"trial_index":2,"trial_type":"fullscreen"},{"StartTime":1587154645479,"fullscreen":true,"internal_node_id":"0.0-4.0-0.0","key_press":75,"phase":"Instructions","rt":4196.760000006179,"stimulus":"<p>Please read these instructions carefully.</p><p>In this 'experiment' you will be presented with words in coloured text. You will be identifying the colour of that text by pressing keys on the keyboard. J = Red, K = Yellow, L = Green. Please use just your dominant hand to make responses. Also, when prompted to provide a word, respond by typing in the word 'clean'. You will have 2 seconds to respond to each stimuli.</p><p>Press any key to begin.</p>","subject":"n73ggd0vkyxe10m","time_elapsed":19319,"trial_index":3,"trial_type":"html-keyboard-response"},{"StartTime":1587154645479,"fullscreen":true,"internal_node_id":"0.0-4.0-1.0","phase":"Attention_Check","responses":"{\"Attention_check\":\"clean\"}","rt":1248.650000008638,"subject":"n73ggd0vkyxe10m","time_elapsed":21584,"trial_index":4,"trial_type":"survey-text"},{"StartTime":1587154645479,"internal_node_id":"0.0-5.0","phase":"Fixation","stimulus":"<p id = 'fixation_stim', style = 'color: black; font-size: 60pt;'>+</p>","subject":"n73ggd0vkyxe10m","time_elapsed":25342,"trial_index":5,"trial_type":"html-keyboard-response"},{"StartTime":1587154645479,"internal_node_id":"0.0-6.0-0.0","phase":"Fixation","stimulus":"<p id = 'fixation_stim', style = 'color: black; font-size: 60pt;'>+</p>","subject":"n73ggd0vkyxe10m","time_elapsed":25596,"trial_index":6,"trial_type":"html-keyboard-response"},{"StartTime":1587154645479,"colour":"red","cor_response":"j","correct":true,"internal_node_id":"0.0-6.0-1.0","key_press":74,"phase":"Practice","rt":1127.584999994724,"stim_type":"Practice","stimulus":"<p id = 'contingency_stim', style = 'color: red; font-size: 60pt;'>CLOCK</p>","subject":"n73ggd0vkyxe10m","time_elapsed":26727,"trial_index":7,"trial_type":"html-keyboard-response","word":"CLOCK"},{"StartTime":1587154645479,"internal_node_id":"0.0-6.0-2.0","phase":"Feedback","stimulus":"<p id = 'fixation_stim', style = 'color: white; font-size: 60pt;'>BLANK</p>","subject":"n73ggd0vkyxe10m","time_elapsed":26735,"trial_index":8,"trial_type":"html-keyboard-response"},{"StartTime":1587154645479,"internal_node_id":"0.0-6.0-0.1","phase":"Fixation","stimulus":"<p id = 'fixation_stim', style = 'color: black; font-size: 60pt;'>+</p>","subject":"n73ggd0vkyxe10m","time_elapsed":26988,"trial_index":9,"trial_type":"html-keyboard-response"},{"StartTime":1587154645479,"colour":"yellow","cor_response":"k","correct":true,"internal_node_id":"0.0-6.0-1.1","key_press":75,"phase":"Practice","rt":775.3200000006473,"stim_type":"Practice","stimulus":"<p id = 'contingency_stim', style = 'color: yellow; font-size: 60pt;'>CLOCK</p>","subject":"n73ggd0vkyxe10m","time_elapsed":27767,"trial_index":10,"trial_type":"html-keyboard-response","word":"CLOCK"},{"StartTime":1587154645479,"internal_node_id":"0.0-6.0-2.1","phase":"Feedback","stimulus":"<p id = 'fixation_stim', style = 'color: white; font-size: 60pt;'>BLANK</p>","subject":"n73ggd0vkyxe10m","time_elapsed":27773,"trial_index":11,"trial_type":"html-keyboard-response"},{"StartTime":1587154645479,"internal_node_id":"0.0-6.0-0.2","phase":"Fixation","stimulus":"<p id = 'fixation_stim', style = 'color: black; font-size: 60pt;'>+</p>","subject":"n73ggd0vkyxe10m","time_elapsed":28027,"trial_index":12,"trial_type":"html-keyboard-response"},{"StartTime":1587154645479,"colour":"yellow","cor_response":"k","correct":true,"internal_node_id":"0.0-6.0-1.2","key_press":75,"phase":"Practice","rt":680.8549999987008,"stim_type":"Practice","stimulus":"<p id = 'contingency_stim', style = 'color: yellow; font-size: 60pt;'>UNDER</p>","subject":"n73ggd0vkyxe10m","time_elapsed":28711,"trial_index":13,"trial_type":"html-keyboard-response","word":"UNDER"},{"StartTime":1587154645479,"internal_node_id":"0.0-6.0-2.2","phase":"Feedback","stimulus":"<p id = 'fixation_stim', style = 'color: white; font-size: 60pt;'>BLANK</p>","subject":"n73ggd0vkyxe10m","time_elapsed":28718,"trial_index":14,"trial_type":"html-keyboard-response"},{"StartTime":1587154645479,"internal_node_id":"0.0-6.0-0.3","phase":"Fixation","stimulus":"<p id = 'fixation_stim', style = 'color: black; font-size: 60pt;'>+</p>","subject":"n73ggd0vkyxe10m","time_elapsed":28972,"trial_index":15,"trial_type":"html-keyboard-response"},{"StartTime":1587154645479,"colour":"green","cor_response":"l","correct":true,"internal_node_id":"0.0-6.0-1.3","key_press":76,"phase":"Practice","rt":585.6300000014016,"stim_type":"Practice","stimulus":"<p id = 'contingency_stim', style = 'color: green; font-size: 60pt;'>CLOCK</p>","subject":"n73ggd0vkyxe10m","time_elapsed":29561,"trial_index":16,"trial_type":"html-keyboard-response","word":"CLOCK"},{"StartTime":1587154645479,"internal_node_id":"0.0-6.0-2.3","phase":"Feedback","stimulus":"<p id = 'fixation_stim', style = 'color: white; font-size: 60pt;'>BLANK</p>","subject":"n73ggd0vkyxe10m","time_elapsed":29568,"trial_index":17,"trial_type":"html-keyboard-response"},{"StartTime":1587154645479,"internal_node_id":"0.0-6.0-0.4","phase":"Fixation","stimulus":"<p id = 'fixation_stim', style = 'color: black; font-size: 60pt;'>+</p>","subject":"n73ggd0vkyxe10m","time_elapsed":29822,"trial_index":18,"trial_type":"html-keyboard-response"},{"StartTime":1587154645479,"colour":"green","cor_response":"l","correct":true,"internal_node_id":"0.0-6.0-1.4","key_press":76,"phase":"Practice","rt":533.6449999886099,"stim_type":"Practice","stimulus":"<p id = 'contingency_stim', style = 'color: green; font-size: 60pt;'>MONTH</p>","subject":"n73ggd0vkyxe10m","time_elapsed":30358,"trial_index":19,"trial_type":"html-keyboard-response","word":"MONTH"},{"StartTime":1587154645479,"internal_node_id":"0.0-6.0-2.4","phase":"Feedback","stimulus":"<p id = 'fixation_stim', style = 'color: white; font-size: 60pt;'>BLANK</p>","subject":"n73ggd0vkyxe10m","time_elapsed":30363,"trial_index":20,"trial_type":"html-keyboard-response"},{"StartTime":1587154645479,"internal_node_id":"0.0-6.0-0.5","phase":"Fixation","stimulus":"<p id = 'fixation_stim', style = 'color: black; font-size: 60pt;'>+</p>","subject":"n73ggd0vkyxe10m","time_elapsed":30616,"trial_index":21,"trial_type":"html-keyboard-response"},{"StartTime":1587154645479,"colour":"green","cor_response":"l","correct":true,"internal_node_id":"0.0-6.0-1.5","key_press":76,"phase":"Practice","rt":556.6649999964284,"stim_type":"Practice","stimulus":"<p id = 'contingency_stim', style = 'color: green; font-size: 60pt;'>UNDER</p>","subject":"n73ggd0vkyxe10m","time_elapsed":31175,"trial_index":22,"trial_type":"html-keyboard-response","word":"UNDER"},{"StartTime":1587154645479,"internal_node_id":"0.0-6.0-2.5","phase":"Feedback","stimulus":"<p id = 'fixation_stim', style = 'color: white; font-size: 60pt;'>BLANK</p>","subject":"n73ggd0vkyxe10m","time_elapsed":31183,"trial_index":23,"trial_type":"html-keyboard-response"},{"StartTime":1587154645479,"internal_node_id":"0.0-6.0-0.6","phase":"Fixation","stimulus":"<p id = 'fixation_stim', style = 'color: black; font-size: 60pt;'>+</p>","subject":"n73ggd0vkyxe10m","time_elapsed":31437,"trial_index":24,"trial_type":"html-keyboard-response"},{"StartTime":1587154645479,"colour":"red","cor_response":"j","correct":false,"internal_node_id":"0.0-6.0-1.6","key_press":75,"phase":"Practice","rt":623.2600000075763,"stim_type":"Practice","stimulus":"<p id = 'contingency_stim', style = 'color: red; font-size: 60pt;'>UNDER</p>","subject":"n73ggd0vkyxe10m","time_elapsed":32063,"trial_index":25,"trial_type":"html-keyboard-response","word":"UNDER"},{"StartTime":1587154645479,"internal_node_id":"0.0-6.0-2.6","phase":"Feedback","stimulus":"<p id = 'fixation_stim', style = 'color: black; font-size: 60pt;'>XXX</p>","subject":"n73ggd0vkyxe10m","time_elapsed":33066,"trial_index":26,"trial_type":"html-keyboard-response"},{"StartTime":1587154645479,"internal_node_id":"0.0-6.0-0.7","phase":"Fixation","stimulus":"<p id = 'fixation_stim', style = 'color: black; font-size: 60pt;'>+</p>","subject":"n73ggd0vkyxe10m","time_elapsed":33319,"trial_index":27,"trial_type":"html-keyboard-response"},{"StartTime":1587154645479,"colour":"yellow","cor_response":"k","correct":true,"internal_node_id":"0.0-6.0-1.7","key_press":75,"phase":"Practice","rt":493.7250000075437,"stim_type":"Practice","stimulus":"<p id = 'contingency_stim', style = 'color: yellow; font-size: 60pt;'>MONTH</p>","subject":"n73ggd0vkyxe10m","time_elapsed":33815,"trial_index":28,"trial_type":"html-keyboard-response","word":"MONTH"},{"StartTime":1587154645479,"internal_node_id":"0.0-6.0-2.7","phase":"Feedback","stimulus":"<p id = 'fixation_stim', style = 'color: white; font-size: 60pt;'>BLANK</p>","subject":"n73ggd0vkyxe10m","time_elapsed":33822,"trial_index":29,"trial_type":"html-keyboard-response"},{"StartTime":1587154645479,"internal_node_id":"0.0-6.0-0.8","phase":"Fixation","stimulus":"<p id = 'fixation_stim', style = 'color: black; font-size: 60pt;'>+</p>","subject":"n73ggd0vkyxe10m","time_elapsed":34076,"trial_index":30,"trial_type":"html-keyboard-response"},{"StartTime":1587154645479,"colour":"red","cor_response":"j","correct":true,"internal_node_id":"0.0-6.0-1.8","key_press":74,"phase":"Practice","rt":479.94499999913387,"stim_type":"Practice","stimulus":"<p id = 'contingency_stim', style = 'color: red; font-size: 60pt;'>PLATE</p>","subject":"n73ggd0vkyxe10m","time_elapsed":34558,"trial_index":31,"trial_type":"html-keyboard-response","word":"PLATE"},{"StartTime":1587154645479,"internal_node_id":"0.0-6.0-2.8","phase":"Feedback","stimulus":"<p id = 'fixation_stim', style = 'color: white; font-size: 60pt;'>BLANK</p>","subject":"n73ggd0vkyxe10m","time_elapsed":34563,"trial_index":32,"trial_type":"html-keyboard-response"},{"StartTime":1587154645479,"internal_node_id":"0.0-6.0-0.9","phase":"Fixation","stimulus":"<p id = 'fixation_stim', style = 'color: black; font-size: 60pt;'>+</p>","subject":"n73ggd0vkyxe10m","time_elapsed":34816,"trial_index":33,"trial_type":"html-keyboard-response"},{"StartTime":1587154645479,"colour":"yellow","cor_response":"k","correct":true,"internal_node_id":"0.0-6.0-1.9","key_press":75,"phase":"Practice","rt":644.2099999985658,"stim_type":"Practice","stimulus":"<p id = 'contingency_stim', style = 'color: yellow; font-size: 60pt;'>PLATE</p>","subject":"n73ggd0vkyxe10m","time_elapsed":35463,"trial_index":34,"trial_type":"html-keyboard-response","word":"PLATE"},{"StartTime":1587154645479,"internal_node_id":"0.0-6.0-2.9","phase":"Feedback","stimulus":"<p id = 'fixation_stim', style = 'color: white; font-size: 60pt;'>BLANK</p>","subject":"n73ggd0vkyxe10m","time_elapsed":35470,"trial_index":35,"trial_type":"html-keyboard-response"},{"StartTime":1587154645479,"internal_node_id":"0.0-6.0-0.10","phase":"Fixation","stimulus":"<p id = 'fixation_stim', style = 'color: black; font-size: 60pt;'>+</p>","subject":"n73ggd0vkyxe10m","time_elapsed":35723,"trial_index":36,"trial_type":"html-keyboard-response"},{"StartTime":1587154645479,"colour":"green","cor_response":"l","correct":true,"internal_node_id":"0.0-6.0-1.10","key_press":76,"phase":"Practice","rt":855.7600000058301,"stim_type":"Practice","stimulus":"<p id = 'contingency_stim', style = 'color: green; font-size: 60pt;'>PLATE</p>","subject":"n73ggd0vkyxe10m","time_elapsed":36582,"trial_index":37,"trial_type":"html-keyboard-response","word":"PLATE"},{"StartTime":1587154645479,"internal_node_id":"0.0-6.0-2.10","phase":"Feedback","stimulus":"<p id = 'fixation_stim', style = 'color: white; font-size: 60pt;'>BLANK</p>","subject":"n73ggd0vkyxe10m","time_elapsed":36586,"trial_index":38,"trial_type":"html-keyboard-response"},{"StartTime":1587154645479,"internal_node_id":"0.0-6.0-0.11","phase":"Fixation","stimulus":"<p id = 'fixation_stim', style = 'color: black; font-size: 60pt;'>+</p>","subject":"n73ggd0vkyxe10m","time_elapsed":36837,"trial_index":39,"trial_type":"html-keyboard-response"},{"StartTime":1587154645479,"colour":"red","cor_response":"j","correct":true,"internal_node_id":"0.0-6.0-1.11","key_press":74,"phase":"Practice","rt":648.68500000739,"stim_type":"Practice","stimulus":"<p id = 'contingency_stim', style = 'color: red; font-size: 60pt;'>MONTH</p>","subject":"n73ggd0vkyxe10m","time_elapsed":37489,"trial_index":40,"trial_type":"html-keyboard-response","word":"MONTH"},{"StartTime":1587154645479,"internal_node_id":"0.0-6.0-2.11","phase":"Feedback","stimulus":"<p id = 'fixation_stim', style = 'color: white; font-size: 60pt;'>BLANK</p>","subject":"n73ggd0vkyxe10m","time_elapsed":37497,"trial_index":41,"trial_type":"html-keyboard-response"},{"StartTime":1587154645479,"fullscreen":true,"internal_node_id":"0.0-7.0-0.0-0.0","phase":"Survey","responses":"{\"Par_Age\":\"25\"}","rt":3060.589999993681,"subject":"n73ggd0vkyxe10m","time_elapsed":40567,"trial_index":42,"trial_type":"survey-text"},{"StartTime":1587154645479,"fullscreen":true,"internal_node_id":"0.0-7.0-1.0","phase":"Survey","responses":"{\"Gender_Q\":\"Male\",\"other_gender_fill_in\":\"\"}","rt":2587.4150000017835,"subject":"n73ggd0vkyxe10m","time_elapsed":43160,"trial_index":43,"trial_type":"survey-html-form"},{"StartTime":1587154645479,"fullscreen":true,"internal_node_id":"0.0-7.0-2.0","phase":"Survey","responses":"{\"Country_Q\":\"Canada\",\"other_country_fill_in\":\"\"}","rt":2203.8750000065193,"subject":"n73ggd0vkyxe10m","time_elapsed":45368,"trial_index":44,"trial_type":"survey-html-form"},{"StartTime":1587154645479,"fullscreen":true,"internal_node_id":"0.0-7.0-3.0","phase":"Survey","responses":"{\"Par_ID\":\"Brad\"}","rt":3560.1350000069942,"subject":"n73ggd0vkyxe10m","time_elapsed":48936,"trial_index":45,"trial_type":"survey-text"},{"StartTime":1587154645479,"internal_node_id":"0.0-8.0","subject":"n73ggd0vkyxe10m","success":true,"time_elapsed":49938,"trial_index":46,"trial_type":"fullscreen"}]}}